{"entry":[{"resource":{"id":"2756653a-d80e-4ca1-899f-a79c5ad0c40d","identifier":[{"system":"internal","value":"travel-questionnaire"}],"item":[{"linkId":"1","text":"What country will you be travelling to?","type":"string"},{"item":[{"linkId":"2.1","text":"Departure","type":"date"},{"linkId":"2.2","text":"Return","type":"date"}],"linkId":"2","text":"What dates will you be travelling on?","type":"group"}],"resourceType":"Questionnaire","status":"active","subjectType":["Patient"],"title":"Travel Intention"}}],"resourceType":"Bundle"}
{"entry":[{"resource":{"birthDate":"1937-05-09","gender":"female","id":"7e5f36bc-3694-49ce-bdba-8ab7a13988d2","identifier":[{"value":"demo-patient"}],"name":[{"family":"Smith","given":["Taylor"],"use":"official"}],"resourceType":"Patient","telecom":[{"value":"(555) 555-5555"}]}},{"resource":{"abatementDateTime":"1937-06-04T00:00:00Z","clinicalStatus":"resolved","code":{"coding":[{"code":"Hepatitis","system":"http://hl7.org/fhir/v3/ConditionCode"}]},"evidence":[{"detail":[{"reference":"QuestionnaireResponse/0c02267a-22cc-4204-8ec3-4c93c0800f27"}]}],"id":"eb044420-53e8-4e99-a826-cf80ac777f39","onsetDateTime":"1937-05-21T00:00:00Z","resourceType":"Condition","subject":{"reference":"Patient/7e5f36bc-3694-49ce-bdba-8ab7a13988d2"}}},{"resource":{"abatementDateTime":"1937-05-31T00:00:00Z","clinicalStatus":"resolved","code":{"coding":[{"code":"Measles","system":"http://hl7.org/fhir/v3/ConditionCode"}]},"evidence":[{"detail":[{"reference":"QuestionnaireResponse/0c02267a-22cc-4204-8ec3-4c93c0800f27"}]}],"id":"8e893750-719d-4b66-9bcd-cb270fbb6686","onsetDateTime":"1937-05-17T00:00:00Z","resourceType":"Condition","subject":{"reference":"Patient/7e5f36bc-3694-49ce-bdba-8ab7a13988d2"}}},{"resource":{"abatementDateTime":"1937-05-31T00:00:00Z","clinicalStatus":"resolved","code":{"coding":[{"code":"Meningitis","system":"http://hl7.org/fhir/v3/ConditionCode"}]},"evidence":[{"detail":[{"reference":"QuestionnaireResponse/0c02267a-22cc-4204-8ec3-4c93c0800f27"}]}],"id":"cb6e40b2-2ce6-4dee-a91e-751ac2b7954e","onsetDateTime":"1937-05-17T00:00:00Z","resourceType":"Condition","subject":{"reference":"Patient/7e5f36bc-3694-49ce-bdba-8ab7a13988d2"}}},{"resource":{"abatementDateTime":"1937-06-04T00:00:00Z","clinicalStatus":"resolved","code":{"coding":[{"code":"Yellow Fever","system":"http://hl7.org/fhir/v3/ConditionCode"}]},"evidence":[{"detail":[{"reference":"QuestionnaireResponse/0c02267a-22cc-4204-8ec3-4c93c0800f27"}]}],"id":"56e756d4-9f27-448c-98b1-e0eb36527f17","onsetDateTime":"1937-05-21T00:00:00Z","resourceType":"Condition","subject":{"reference":"Patient/7e5f36bc-3694-49ce-bdba-8ab7a13988d2"}}},{"resource":{"abatementDateTime":"1939-05-31T00:00:00Z","clinicalStatus":"resolved","code":{"coding":[{"code":"Hepatitis","system":"http://hl7.org/fhir/v3/ConditionCode"}]},"evidence":[{"detail":[{"reference":"QuestionnaireResponse/80130bc9-f124-4cd1-a5b6-b608be87627b"}]}],"id":"fbf82cf1-b0e2-4855-9660-1732d4e48799","onsetDateTime":"1939-05-17T00:00:00Z","resourceType":"Condition","subject":{"reference":"Patient/7e5f36bc-3694-49ce-bdba-8ab7a13988d2"}}},{"resource":{"abatementDateTime":"1939-06-02T00:00:00Z","clinicalStatus":"resolved","code":{"coding":[{"code":"Measles","system":"http://hl7.org/fhir/v3/ConditionCode"}]},"evidence":[{"detail":[{"reference":"QuestionnaireResponse/80130bc9-f124-4cd1-a5b6-b608be87627b"}]}],"id":"206a3fbb-4f1f-42e9-8bfd-68659a365503","onsetDateTime":"1939-05-19T00:00:00Z","resourceType":"Condition","subject":{"reference":"Patient/7e5f36bc-3694-49ce-bdba-8ab7a13988d2"}}},{"resource":{"abatementDateTime":"1939-06-02T00:00:00Z","clinicalStatus":"resolved","code":{"coding":[{"code":"Meningitis","system":"http://hl7.org/fhir/v3/ConditionCode"}]},"evidence":[{"detail":[{"reference":"QuestionnaireResponse/80130bc9-f124-4cd1-a5b6-b608be87627b"}]}],"id":"4dcf2c14-16c2-4a89-a278-442e642f7845","onsetDateTime":"1939-05-19T00:00:00Z","resourceType":"Condition","subject":{"reference":"Patient/7e5f36bc-3694-49ce-bdba-8ab7a13988d2"}}},{"resource":{"abatementDateTime":"1939-06-03T00:00:00Z","clinicalStatus":"resolved","code":{"coding":[{"code":"Yellow Fever","system":"http://hl7.org/fhir/v3/ConditionCode"}]},"evidence":[{"detail":[{"reference":"QuestionnaireResponse/80130bc9-f124-4cd1-a5b6-b608be87627b"}]}],"id":"aa169bde-71bb-4eae-93eb-b8f9d6a30e43","onsetDateTime":"1939-05-20T00:00:00Z","resourceType":"Condition","subject":{"reference":"Patient/7e5f36bc-3694-49ce-bdba-8ab7a13988d2"}}},{"resource":{"abatementDateTime":"1943-06-07T00:00:00Z","clinicalStatus":"resolved","code":{"coding":[{"code":"Hepatitis","system":"http://hl7.org/fhir/v3/ConditionCode"}]},"evidence":[{"detail":[{"reference":"QuestionnaireResponse/088891de-06fa-4070-a8b2-84b7dd852fab"}]}],"id":"8d6b9aef-64d8-419d-bb11-0fe8fb869612","onsetDateTime":"1943-05-24T00:00:00Z","resourceType":"Condition","subject":{"reference":"Patient/7e5f36bc-3694-49ce-bdba-8ab7a13988d2"}}},{"resource":{"abatementDateTime":"1943-06-04T00:00:00Z","clinicalStatus":"resolved","code":{"coding":[{"code":"Measles","system":"http://hl7.org/fhir/v3/ConditionCode"}]},"evidence":[{"detail":[{"reference":"QuestionnaireResponse/088891de-06fa-4070-a8b2-84b7dd852fab"}]}],"id":"59aea76e-ef40-42db-be1c-b2ae565b5f2a","onsetDateTime":"1943-05-21T00:00:00Z","resourceType":"Condition","subject":{"reference":"Patient/7e5f36bc-3694-49ce-bdba-8ab7a13988d2"}}},{"resource":{"abatementDateTime":"1943-06-02T00:00:00Z","clinicalStatus":"resolved","code":{"coding":[{"code":"Meningitis","system":"http://hl7.org/fhir/v3/ConditionCode"}]},"evidence":[{"detail":[{"reference":"QuestionnaireResponse/088891de-06fa-4070-a8b2-84b7dd852fab"}]}],"id":"a7780a8b-b6c2-4dfe-9244-4bda7ee43c89","onsetDateTime":"1943-05-19T00:00:00Z","resourceType":"Condition","subject":{"reference":"Patient/7e5f36bc-3694-49ce-bdba-8ab7a13988d2"}}},{"resource":{"abatementDateTime":"1943-06-07T00:00:00Z","clinicalStatus":"resolved","code":{"coding":[{"code":"Yellow Fever","system":"http://hl7.org/fhir/v3/ConditionCode"}]},"evidence":[{"detail":[{"reference":"QuestionnaireResponse/088891de-06fa-4070-a8b2-84b7dd852fab"}]}],"id":"130ab1bf-6b99-49c1-973f-b0f77cef3e1a","onsetDateTime":"1943-05-24T00:00:00Z","resourceType":"Condition","subject":{"reference":"Patient/7e5f36bc-3694-49ce-bdba-8ab7a13988d2"}}},{"resource":{"abatementDateTime":"1944-06-03T00:00:00Z","clinicalStatus":"resolved","code":{"coding":[{"code":"Hepatitis","system":"http://hl7.org/fhir/v3/ConditionCode"}]},"evidence":[{"detail":[{"reference":"QuestionnaireResponse/ef69ba1a-f9d2-4ac2-81a5-a15ed9658a35"}]}],"id":"ca9b79fd-c5ff-47b0-942f-350032b684f3","onsetDateTime":"1944-05-20T00:00:00Z","resourceType":"Condition","subject":{"reference":"Patient/7e5f36bc-3694-49ce-bdba-8ab7a13988d2"}}},{"resource":{"abatementDateTime":"1944-06-01T00:00:00Z","clinicalStatus":"resolved","code":{"coding":[{"code":"Measles","system":"http://hl7.org/fhir/v3/ConditionCode"}]},"evidence":[{"detail":[{"reference":"QuestionnaireResponse/ef69ba1a-f9d2-4ac2-81a5-a15ed9658a35"}]}],"id":"45ead8ee-6b76-4e41-b0f4-27d2ea14af35","onsetDateTime":"1944-05-18T00:00:00Z","resourceType":"Condition","subject":{"reference":"Patient/7e5f36bc-3694-49ce-bdba-8ab7a13988d2"}}},{"resource":{"abatementDateTime":"1944-06-06T00:00:00Z","clinicalStatus":"resolved","code":{"coding":[{"code":"Meningitis","system":"http://hl7.org/fhir/v3/ConditionCode"}]},"evidence":[{"detail":[{"reference":"QuestionnaireResponse/ef69ba1a-f9d2-4ac2-81a5-a15ed9658a35"}]}],"id":"f58e7cf6-4147-4847-9c02-91100965fe5e","onsetDateTime":"1944-05-23T00:00:00Z","resourceType":"Condition","subject":{"reference":"Patient/7e5f36bc-3694-49ce-bdba-8ab7a13988d2"}}},{"resource":{"abatementDateTime":"1944-06-04T00:00:00Z","clinicalStatus":"resolved","code":{"coding":[{"code":"Yellow Fever","system":"http://hl7.org/fhir/v3/ConditionCode"}]},"evidence":[{"detail":[{"reference":"QuestionnaireResponse/ef69ba1a-f9d2-4ac2-81a5-a15ed9658a35"}]}],"id":"7cb036e1-91c1-4f70-a295-da664e5bbd8d","onsetDateTime":"1944-05-21T00:00:00Z","resourceType":"Condition","subject":{"reference":"Patient/7e5f36bc-3694-49ce-bdba-8ab7a13988d2"}}},{"resource":{"abatementDateTime":"1946-05-26T00:00:00Z","clinicalStatus":"resolved","code":{"coding":[{"code":"Hepatitis","system":"http://hl7.org/fhir/v3/ConditionCode"}]},"evidence":[{"detail":[{"reference":"QuestionnaireResponse/ac6556be-5099-49ce-8684-9a1a0949a000"}]}],"id":"c54d39ba-8b7a-49e2-8cb2-ea10f18f8c05","onsetDateTime":"1946-05-12T00:00:00Z","resourceType":"Condition","subject":{"reference":"Patient/7e5f36bc-3694-49ce-bdba-8ab7a13988d2"}}},{"resource":{"abatementDateTime":"1946-05-27T00:00:00Z","clinicalStatus":"resolved","code":{"coding":[{"code":"Measles","system":"http://hl7.org/fhir/v3/ConditionCode"}]},"evidence":[{"detail":[{"reference":"QuestionnaireResponse/ac6556be-5099-49ce-8684-9a1a0949a000"}]}],"id":"8019af79-5daa-4ce7-bba8-bcd2a707b2dc","onsetDateTime":"1946-05-13T00:00:00Z","resourceType":"Condition","subject":{"reference":"Patient/7e5f36bc-3694-49ce-bdba-8ab7a13988d2"}}},{"resource":{"abatementDateTime":"1946-05-22T00:00:00Z","clinicalStatus":"resolved","code":{"coding":[{"code":"Yellow Fever","system":"http://hl7.org/fhir/v3/ConditionCode"}]},"evidence":[{"detail":[{"reference":"QuestionnaireResponse/ac6556be-5099-49ce-8684-9a1a0949a000"}]}],"id":"0b09f65f-1730-4f18-8f76-ebb35d6d6fcc","onsetDateTime":"1946-05-08T00:00:00Z","resourceType":"Condition","subject":{"reference":"Patient/7e5f36bc-3694-49ce-bdba-8ab7a13988d2"}}},{"resource":{"abatementDateTime":"1950-06-02T00:00:00Z","clinicalStatus":"resolved","code":{"coding":[{"code":"Hepatitis","system":"http://hl7.org/fhir/v3/ConditionCode"}]},"evidence":[{"detail":[{"reference":"QuestionnaireResponse/f5d6e8cf-b0d0-49f7-98d9-089d57d924b3"}]}],"id":"f847e3b4-064b-434f-88ad-14df10e8e0e2","onsetDateTime":"1950-05-19T00:00:00Z","resourceType":"Condition","subject":{"reference":"Patient/7e5f36bc-3694-49ce-bdba-8ab7a13988d2"}}},{"resource":{"abatementDateTime":"1950-06-03T00:00:00Z","clinicalStatus":"resolved","code":{"coding":[{"code":"Measles","system":"http://hl7.org/fhir/v3/ConditionCode"}]},"evidence":[{"detail":[{"reference":"QuestionnaireResponse/f5d6e8cf-b0d0-49f7-98d9-089d57d924b3"}]}],"id":"f9e17311-f1a1-460f-947e-a2dcb6759686","onsetDateTime":"1950-05-20T00:00:00Z","resourceType":"Condition","subject":{"reference":"Patient/7e5f36bc-3694-49ce-bdba-8ab7a13988d2"}}},{"resource":{"abatementDateTime":"1950-06-05T00:00:00Z","clinicalStatus":"resolved","code":{"coding":[{"code":"Meningitis","system":"http://hl7.org/fhir/v3/ConditionCode"}]},"evidence":[{"detail":[{"reference":"QuestionnaireResponse/f5d6e8cf-b0d0-49f7-98d9-089d57d924b3"}]}],"id":"ddf0c17d-a61e-4aee-96cd-c668eb2fcdae","onsetDateTime":"1950-05-22T00:00:00Z","resourceType":"Condition","subject":{"reference":"Patient/7e5f36bc-3694-49ce-bdba-8ab7a13988d2"}}},{"resource":{"abatementDateTime":"1950-06-02T00:00:00Z","clinicalStatus":"resolved","code":{"coding":[{"code":"Yellow Fever","system":"http://hl7.org/fhir/v3/ConditionCode"}]},"evidence":[{"detail":[{"reference":"QuestionnaireResponse/f5d6e8cf-b0d0-49f7-98d9-089d57d924b3"}]}],"id":"42a635b9-5bd4-4716-b7ec-e0a3d644d7db","onsetDateTime":"1950-05-19T00:00:00Z","resourceType":"Condition","subject":{"reference":"Patient/7e5f36bc-3694-49ce-bdba-8ab7a13988d2"}}},{"resource":{"abatementDateTime":"1954-06-02T00:00:00Z","clinicalStatus":"resolved","code":{"coding":[{"code":"Measles","system":"http://hl7.org/fhir/v3/ConditionCode"}]},"evidence":[{"detail":[{"reference":"QuestionnaireResponse/42fe5ae2-c45a-4c85-b062-ba00e34b3873"}]}],"id":"ed46eb33-ca5d-4978-a302-e7336ed8544c","onsetDateTime":"1954-05-19T00:00:00Z","resourceType":"Condition","subject":{"reference":"Patient/7e5f36bc-3694-49ce-bdba-8ab7a13988d2"}}},{"resource":{"abatementDateTime":"1954-05-31T00:00:00Z","clinicalStatus":"resolved","code":{"coding":[{"code":"Meningitis","system":"http://hl7.org/fhir/v3/ConditionCode"}]},"evidence":[{"detail":[{"reference":"QuestionnaireResponse/42fe5ae2-c45a-4c85-b062-ba00e34b3873"}]}],"id":"79901fcf-5a0b-44c0-9b0e-8f1bb9bf0ad9","onsetDateTime":"1954-05-17T00:00:00Z","resourceType":"Condition","subject":{"reference":"Patient/7e5f36bc-3694-49ce-bdba-8ab7a13988d2"}}},{"resource":{"abatementDateTime":"1960-05-24T00:00:00Z","clinicalStatus":"resolved","code":{"coding":[{"code":"Measles","system":"http://hl7.org/fhir/v3/ConditionCode"}]},"evidence":[{"detail":[{"reference":"QuestionnaireResponse/2118c2ee-79ff-495d-aec7-b2dad1fc577c"}]}],"id":"3f0d1df4-c66e-4f36-b39e-99ff451d2730","onsetDateTime":"1960-05-10T00:00:00Z","resourceType":"Condition","subject":{"reference":"Patient/7e5f36bc-3694-49ce-bdba-8ab7a13988d2"}}},{"resource":{"abatementDateTime":"1965-05-23T00:00:00Z","clinicalStatus":"resolved","code":{"coding":[{"code":"Measles","system":"http://hl7.org/fhir/v3/ConditionCode"}]},"evidence":[{"detail":[{"reference":"QuestionnaireResponse/9a410039-a9d9-40f8-a3bd-ee9573c2110c"}]}],"id":"03465d22-b4b3-4f74-84e1-bfbe9d777def","onsetDateTime":"1965-05-09T00:00:00Z","resourceType":"Condition","subject":{"reference":"Patient/7e5f36bc-3694-49ce-bdba-8ab7a13988d2"}}},{"resource":{"abatementDateTime":"1965-05-21T00:00:00Z","clinicalStatus":"resolved","code":{"coding":[{"code":"Yellow Fever","system":"http://hl7.org/fhir/v3/ConditionCode"}]},"evidence":[{"detail":[{"reference":"QuestionnaireResponse/9a410039-a9d9-40f8-a3bd-ee9573c2110c"}]}],"id":"28941bcf-28e5-4be1-a170-55d6f1d5d4b8","onsetDateTime":"1965-05-07T00:00:00Z","resourceType":"Condition","subject":{"reference":"Patient/7e5f36bc-3694-49ce-bdba-8ab7a13988d2"}}},{"resource":{"abatementDateTime":"1967-05-28T00:00:00Z","clinicalStatus":"resolved","code":{"coding":[{"code":"Measles","system":"http://hl7.org/fhir/v3/ConditionCode"}]},"evidence":[{"detail":[{"reference":"QuestionnaireResponse/82167200-02ca-4d7c-8be1-d5f0bf7dd5dd"}]}],"id":"7d565176-3038-478b-ae50-063286d4ed2d","onsetDateTime":"1967-05-14T00:00:00Z","resourceType":"Condition","subject":{"reference":"Patient/7e5f36bc-3694-49ce-bdba-8ab7a13988d2"}}},{"resource":{"abatementDateTime":"1967-05-28T00:00:00Z","clinicalStatus":"resolved","code":{"coding":[{"code":"Meningitis","system":"http://hl7.org/fhir/v3/ConditionCode"}]},"evidence":[{"detail":[{"reference":"QuestionnaireResponse/82167200-02ca-4d7c-8be1-d5f0bf7dd5dd"}]}],"id":"90f402f3-4dd8-4183-93c3-a4e37fb30c28","onsetDateTime":"1967-05-14T00:00:00Z","resourceType":"Condition","subject":{"reference":"Patient/7e5f36bc-3694-49ce-bdba-8ab7a13988d2"}}},{"resource":{"abatementDateTime":"1968-05-18T00:00:00Z","clinicalStatus":"resolved","code":{"coding":[{"code":"Measles","system":"http://hl7.org/fhir/v3/ConditionCode"}]},"evidence":[{"detail":[{"reference":"QuestionnaireResponse/cb23d929-69c4-490b-a640-1d618990325e"}]}],"id":"5bdcddaa-71ad-4d82-81ad-162d0e142a0c","onsetDateTime":"1968-05-04T00:00:00Z","resourceType":"Condition","subject":{"reference":"Patient/7e5f36bc-3694-49ce-bdba-8ab7a13988d2"}}},{"resource":{"abatementDateTime":"1973-05-26T00:00:00Z","clinicalStatus":"resolved","code":{"coding":[{"code":"Measles","system":"http://hl7.org/fhir/v3/ConditionCode"}]},"evidence":[{"detail":[{"reference":"QuestionnaireResponse/8653983c-7de9-4367-b33d-2e9982092a90"}]}],"id":"3412a7f7-ba43-49f0-ae31-2fc30c92c635","onsetDateTime":"1973-05-12T00:00:00Z","resourceType":"Condition","subject":{"reference":"Patient/7e5f36bc-3694-49ce-bdba-8ab7a13988d2"}}},{"resource":{"abatementDateTime":"1974-05-27T00:00:00Z","clinicalStatus":"resolved","code":{"coding":[{"code":"Measles","system":"http://hl7.org/fhir/v3/ConditionCode"}]},"evidence":[{"detail":[{"reference":"QuestionnaireResponse/27ef7dc1-080f-43da-86e4-67313a073a6c"}]}],"id":"60f66aa4-7fc8-4214-8a98-ca1492644538","onsetDateTime":"1974-05-13T00:00:00Z","resourceType":"Condition","subject":{"reference":"Patient/7e5f36bc-3694-49ce-bdba-8ab7a13988d2"}}},{"resource":{"abatementDateTime":"1974-05-30T00:00:00Z","clinicalStatus":"resolved","code":{"coding":[{"code":"Yellow Fever","system":"http://hl7.org/fhir/v3/ConditionCode"}]},"evidence":[{"detail":[{"reference":"QuestionnaireResponse/27ef7dc1-080f-43da-86e4-67313a073a6c"}]}],"id":"6cad4043-b2b2-4f63-be06-d386ef631807","onsetDateTime":"1974-05-16T00:00:00Z","resourceType":"Condition","subject":{"reference":"Patient/7e5f36bc-3694-49ce-bdba-8ab7a13988d2"}}},{"resource":{"abatementDateTime":"1977-05-21T00:00:00Z","clinicalStatus":"resolved","code":{"coding":[{"code":"Meningitis","system":"http://hl7.org/fhir/v3/ConditionCode"}]},"evidence":[{"detail":[{"reference":"QuestionnaireResponse/9711d7c8-b082-47cd-802a-2bd51717cc8c"}]}],"id":"7b339480-9193-48a7-8f9d-6fcdc2fee6ab","onsetDateTime":"1977-05-07T00:00:00Z","resourceType":"Condition","subject":{"reference":"Patient/7e5f36bc-3694-49ce-bdba-8ab7a13988d2"}}},{"resource":{"abatementDateTime":"1977-05-21T00:00:00Z","clinicalStatus":"resolved","code":{"coding":[{"code":"Yellow Fever","system":"http://hl7.org/fhir/v3/ConditionCode"}]},"evidence":[{"detail":[{"reference":"QuestionnaireResponse/9711d7c8-b082-47cd-802a-2bd51717cc8c"}]}],"id":"0136302a-c4d9-4391-b800-985954af6a04","onsetDateTime":"1977-05-07T00:00:00Z","resourceType":"Condition","subject":{"reference":"Patient/7e5f36bc-3694-49ce-bdba-8ab7a13988d2"}}},{"resource":{"abatementDateTime":"1981-05-23T00:00:00Z","clinicalStatus":"resolved","code":{"coding":[{"code":"Measles","system":"http://hl7.org/fhir/v3/ConditionCode"}]},"evidence":[{"detail":[{"reference":"QuestionnaireResponse/3e39aa22-c175-4e91-9d29-0e02b87ea7ff"}]}],"id":"74803409-a93e-4768-b456-b7a84289483c","onsetDateTime":"1981-05-09T00:00:00Z","resourceType":"Condition","subject":{"reference":"Patient/7e5f36bc-3694-49ce-bdba-8ab7a13988d2"}}},{"resource":{"abatementDateTime":"1981-05-26T00:00:00Z","clinicalStatus":"resolved","code":{"coding":[{"code":"Meningitis","system":"http://hl7.org/fhir/v3/ConditionCode"}]},"evidence":[{"detail":[{"reference":"QuestionnaireResponse/3e39aa22-c175-4e91-9d29-0e02b87ea7ff"}]}],"id":"41e1c6f5-0c2a-4686-baf4-8326a5435e88","onsetDateTime":"1981-05-12T00:00:00Z","resourceType":"Condition","subject":{"reference":"Patient/7e5f36bc-3694-49ce-bdba-8ab7a13988d2"}}},{"resource":{"abatementDateTime":"1981-05-24T00:00:00Z","clinicalStatus":"resolved","code":{"coding":[{"code":"Yellow Fever","system":"http://hl7.org/fhir/v3/ConditionCode"}]},"evidence":[{"detail":[{"reference":"QuestionnaireResponse/3e39aa22-c175-4e91-9d29-0e02b87ea7ff"}]}],"id":"af56fad5-42d0-44e1-ac4d-65f32f48f5cd","onsetDateTime":"1981-05-10T00:00:00Z","resourceType":"Condition","subject":{"reference":"Patient/7e5f36bc-3694-49ce-bdba-8ab7a13988d2"}}},{"resource":{"abatementDateTime":"1986-05-20T00:00:00Z","clinicalStatus":"resolved","code":{"coding":[{"code":"Measles","system":"http://hl7.org/fhir/v3/ConditionCode"}]},"evidence":[{"detail":[{"reference":"QuestionnaireResponse/e42a4fe0-f12e-4e54-8541-8636139211cd"}]}],"id":"ef70bb03-7c0f-43b4-ae6c-d46fed90fe7f","onsetDateTime":"1986-05-06T00:00:00Z","resourceType":"Condition","subject":{"reference":"Patient/7e5f36bc-3694-49ce-bdba-8ab7a13988d2"}}},{"resource":{"abatementDateTime":"1989-05-19T00:00:00Z","clinicalStatus":"resolved","code":{"coding":[{"code":"Measles","system":"http://hl7.org/fhir/v3/ConditionCode"}]},"evidence":[{"detail":[{"reference":"QuestionnaireResponse/fe48c934-0dbb-4d01-86df-b44a0464955a"}]}],"id":"cce8242a-daff-47f0-ad9f-7c4e9fb40bba","onsetDateTime":"1989-05-05T00:00:00Z","resourceType":"Condition","subject":{"reference":"Patient/7e5f36bc-3694-49ce-bdba-8ab7a13988d2"}}},{"resource":{"abatementDateTime":"1989-05-20T00:00:00Z","clinicalStatus":"resolved","code":{"coding":[{"code":"Meningitis","system":"http://hl7.org/fhir/v3/ConditionCode"}]},"evidence":[{"detail":[{"reference":"QuestionnaireResponse/fe48c934-0dbb-4d01-86df-b44a0464955a"}]}],"id":"07b6a73e-0604-4883-a93c-ebb6e17f5ac9","onsetDateTime":"1989-05-06T00:00:00Z","resourceType":"Condition","subject":{"reference":"Patient/7e5f36bc-3694-49ce-bdba-8ab7a13988d2"}}},{"resource":{"abatementDateTime":"1989-05-19T00:00:00Z","clinicalStatus":"resolved","code":{"coding":[{"code":"Yellow Fever","system":"http://hl7.org/fhir/v3/ConditionCode"}]},"evidence":[{"detail":[{"reference":"QuestionnaireResponse/fe48c934-0dbb-4d01-86df-b44a0464955a"}]}],"id":"c5b090bd-5d4c-40ad-9da8-53878cc9e287","onsetDateTime":"1989-05-05T00:00:00Z","resourceType":"Condition","subject":{"reference":"Patient/7e5f36bc-3694-49ce-bdba-8ab7a13988d2"}}},{"resource":{"abatementDateTime":"1990-05-19T00:00:00Z","clinicalStatus":"resolved","code":{"coding":[{"code":"Measles","system":"http://hl7.org/fhir/v3/ConditionCode"}]},"evidence":[{"detail":[{"reference":"QuestionnaireResponse/707e7b4c-bf95-453d-b24e-bc463ef2fb87"}]}],"id":"96ab86b7-d513-4aee-95b3-c22442eff634","onsetDateTime":"1990-05-05T00:00:00Z","resourceType":"Condition","subject":{"reference":"Patient/7e5f36bc-3694-49ce-bdba-8ab7a13988d2"}}},{"resource":{"abatementDateTime":"1990-05-23T00:00:00Z","clinicalStatus":"resolved","code":{"coding":[{"code":"Yellow Fever","system":"http://hl7.org/fhir/v3/ConditionCode"}]},"evidence":[{"detail":[{"reference":"QuestionnaireResponse/707e7b4c-bf95-453d-b24e-bc463ef2fb87"}]}],"id":"50587f3b-8f01-4158-98d3-37e16df49b3e","onsetDateTime":"1990-05-09T00:00:00Z","resourceType":"Condition","subject":{"reference":"Patient/7e5f36bc-3694-49ce-bdba-8ab7a13988d2"}}},{"resource":{"abatementDateTime":"1992-05-12T00:00:00Z","clinicalStatus":"resolved","code":{"coding":[{"code":"Measles","system":"http://hl7.org/fhir/v3/ConditionCode"}]},"evidence":[{"detail":[{"reference":"QuestionnaireResponse/7c7b1a31-fbab-4f04-a8f1-577aa2bd31d3"}]}],"id":"aaf6e36d-894c-49e4-9def-5fd94b6e2123","onsetDateTime":"1992-04-28T00:00:00Z","resourceType":"Condition","subject":{"reference":"Patient/7e5f36bc-3694-49ce-bdba-8ab7a13988d2"}}},{"resource":{"abatementDateTime":"1997-05-16T00:00:00Z","clinicalStatus":"resolved","code":{"coding":[{"code":"Measles","system":"http://hl7.org/fhir/v3/ConditionCode"}]},"evidence":[{"detail":[{"reference":"QuestionnaireResponse/c66f15f6-4ff9-4ed4-9586-f33bc801daf2"}]}],"id":"11395261-5c45-43e3-b601-8f066ab405ab","onsetDateTime":"1997-05-02T00:00:00Z","resourceType":"Condition","subject":{"reference":"Patient/7e5f36bc-3694-49ce-bdba-8ab7a13988d2"}}},{"resource":{"abatementDateTime":"2004-05-09T00:00:00Z","clinicalStatus":"resolved","code":{"coding":[{"code":"Measles","system":"http://hl7.org/fhir/v3/ConditionCode"}]},"evidence":[{"detail":[{"reference":"QuestionnaireResponse/a015259a-8bf9-46d2-b200-8fd2fef1a66d"}]}],"id":"605c8ee5-b3e3-4752-be36-6addfaa309a7","onsetDateTime":"2004-04-25T00:00:00Z","resourceType":"Condition","subject":{"reference":"Patient/7e5f36bc-3694-49ce-bdba-8ab7a13988d2"}}},{"resource":{"abatementDateTime":"2013-05-15T00:00:00Z","clinicalStatus":"resolved","code":{"coding":[{"code":"Measles","system":"http://hl7.org/fhir/v3/ConditionCode"}]},"evidence":[{"detail":[{"reference":"QuestionnaireResponse/11d56a76-6010-4da5-b7f7-f8d919447f2d"}]}],"id":"e0ea94d2-e7a5-4619-9705-6acb823af984","onsetDateTime":"2013-05-01T00:00:00Z","resourceType":"Condition","subject":{"reference":"Patient/7e5f36bc-3694-49ce-bdba-8ab7a13988d2"}}},{"resource":{"abatementDateTime":"2013-05-18T00:00:00Z","clinicalStatus":"resolved","code":{"coding":[{"code":"Meningitis","system":"http://hl7.org/fhir/v3/ConditionCode"}]},"evidence":[{"detail":[{"reference":"QuestionnaireResponse/11d56a76-6010-4da5-b7f7-f8d919447f2d"}]}],"id":"8af5b70e-5dba-48ae-ae02-ee4019e3ed35","onsetDateTime":"2013-05-04T00:00:00Z","resourceType":"Condition","subject":{"reference":"Patient/7e5f36bc-3694-49ce-bdba-8ab7a13988d2"}}},{"resource":{"abatementDateTime":"2013-05-17T00:00:00Z","clinicalStatus":"resolved","code":{"coding":[{"code":"Yellow Fever","system":"http://hl7.org/fhir/v3/ConditionCode"}]},"evidence":[{"detail":[{"reference":"QuestionnaireResponse/11d56a76-6010-4da5-b7f7-f8d919447f2d"}]}],"id":"3ffd8f92-444d-4d90-b443-da05cb12d833","onsetDateTime":"2013-05-03T00:00:00Z","resourceType":"Condition","subject":{"reference":"Patient/7e5f36bc-3694-49ce-bdba-8ab7a13988d2"}}},{"resource":{"abatementDateTime":"2015-05-09T00:00:00Z","clinicalStatus":"resolved","code":{"coding":[{"code":"Meningitis","system":"http://hl7.org/fhir/v3/ConditionCode"}]},"evidence":[{"detail":[{"reference":"QuestionnaireResponse/e370c4e6-b5b3-407b-b673-436617498fef"}]}],"id":"76910f71-937d-4fb3-8657-db540943ca9c","onsetDateTime":"2015-04-25T00:00:00Z","resourceType":"Condition","subject":{"reference":"Patient/7e5f36bc-3694-49ce-bdba-8ab7a13988d2"}}},{"resource":{"abatementDateTime":"2015-05-11T00:00:00Z","clinicalStatus":"resolved","code":{"coding":[{"code":"Yellow Fever","system":"http://hl7.org/fhir/v3/ConditionCode"}]},"evidence":[{"detail":[{"reference":"QuestionnaireResponse/e370c4e6-b5b3-407b-b673-436617498fef"}]}],"id":"ff9c7331-f1c6-475e-b115-d09c94acd9f5","onsetDateTime":"2015-04-27T00:00:00Z","resourceType":"Condition","subject":{"reference":"Patient/7e5f36bc-3694-49ce-bdba-8ab7a13988d2"}}},{"resource":{"abatementDateTime":"2019-05-03T00:00:00Z","clinicalStatus":"resolved","code":{"coding":[{"code":"Hepatitis","system":"http://hl7.org/fhir/v3/ConditionCode"}]},"evidence":[{"detail":[{"reference":"QuestionnaireResponse/e7dd38fd-e7ea-4823-9d05-5afb6884a3ec"}]}],"id":"2df1fdc9-73e7-49a5-8ca4-7369d697d4b4","onsetDateTime":"2019-04-19T00:00:00Z","resourceType":"Condition","subject":{"reference":"Patient/7e5f36bc-3694-49ce-bdba-8ab7a13988d2"}}},{"resource":{"author":{"reference":"Patient/7e5f36bc-3694-49ce-bdba-8ab7a13988d2"},"id":"0c02267a-22cc-4204-8ec3-4c93c0800f27","item":[{"answer":[{"valueString":"Democratic Republic of the Congo"}],"linkId":"1"},{"item":[{"answer":[{"valueDate":"1937-05-09"}],"linkId":"2.1"},{"answer":[{"valueDate":"1937-05-20"}],"linkId":"2.2"}],"linkId":"2"}],"questionnaire":{"reference":"Questionnaire/2756653a-d80e-4ca1-899f-a79c5ad0c40d"},"resourceType":"QuestionnaireResponse","status":"completed","subject":{"reference":"Patient/7e5f36bc-3694-49ce-bdba-8ab7a13988d2"}}},{"resource":{"author":{"reference":"Patient/7e5f36bc-3694-49ce-bdba-8ab7a13988d2"},"id":"80130bc9-f124-4cd1-a5b6-b608be87627b","item":[{"answer":[{"valueString":"Nigeria"}],"linkId":"1"},{"item":[{"answer":[{"valueDate":"1939-05-09"}],"linkId":"2.1"},{"answer":[{"valueDate":"1939-05-20"}],"linkId":"2.2"}],"linkId":"2"}],"questionnaire":{"reference":"Questionnaire/2756653a-d80e-4ca1-899f-a79c5ad0c40d"},"resourceType":"QuestionnaireResponse","status":"completed","subject":{"reference":"Patient/7e5f36bc-3694-49ce-bdba-8ab7a13988d2"}}},{"resource":{"author":{"reference":"Patient/7e5f36bc-3694-49ce-bdba-8ab7a13988d2"},"id":"088891de-06fa-4070-a8b2-84b7dd852fab","item":[{"answer":[{"valueString":"Vietnam"}],"linkId":"1"},{"item":[{"answer":[{"valueDate":"1943-05-08"}],"linkId":"2.1"},{"answer":[{"valueDate":"1943-05-22"}],"linkId":"2.2"}],"linkId":"2"}],"questionnaire":{"reference":"Questionnaire/2756653a-d80e-4ca1-899f-a79c5ad0c40d"},"resourceType":"QuestionnaireResponse","status":"completed","subject":{"reference":"Patient/7e5f36bc-3694-49ce-bdba-8ab7a13988d2"}}},{"resource":{"author":{"reference":"Patient/7e5f36bc-3694-49ce-bdba-8ab7a13988d2"},"id":"ef69ba1a-f9d2-4ac2-81a5-a15ed9658a35","item":[{"answer":[{"valueString":"Democratic Republic of the Congo"}],"linkId":"1"},{"item":[{"answer":[{"valueDate":"1944-05-07"}],"linkId":"2.1"},{"answer":[{"valueDate":"1944-05-21"}],"linkId":"2.2"}],"linkId":"2"}],"questionnaire":{"reference":"Questionnaire/2756653a-d80e-4ca1-899f-a79c5ad0c40d"},"resourceType":"QuestionnaireResponse","status":"completed","subject":{"reference":"Patient/7e5f36bc-3694-49ce-bdba-8ab7a13988d2"}}},{"resource":{"author":{"reference":"Patient/7e5f36bc-3694-49ce-bdba-8ab7a13988d2"},"id":"ac6556be-5099-49ce-8684-9a1a0949a000","item":[{"answer":[{"valueString":"Egypt"}],"linkId":"1"},{"item":[{"answer":[{"valueDate":"1946-05-07"}],"linkId":"2.1"},{"answer":[{"valueDate":"1946-05-11"}],"linkId":"2.2"}],"linkId":"2"}],"questionnaire":{"reference":"Questionnaire/2756653a-d80e-4ca1-899f-a79c5ad0c40d"},"resourceType":"QuestionnaireResponse","status":"completed","subject":{"reference":"Patient/7e5f36bc-3694-49ce-bdba-8ab7a13988d2"}}},{"resource":{"author":{"reference":"Patient/7e5f36bc-3694-49ce-bdba-8ab7a13988d2"},"id":"4f3fb6c3-c2f2-4451-940d-82c84a2473e8","item":[{"answer":[{"valueString":"Mexico"}],"linkId":"1"},{"item":[{"answer":[{"valueDate":"1949-05-06"}],"linkId":"2.1"},{"answer":[{"valueDate":"1949-05-07"}],"linkId":"2.2"}],"linkId":"2"}],"questionnaire":{"reference":"Questionnaire/2756653a-d80e-4ca1-899f-a79c5ad0c40d"},"resourceType":"QuestionnaireResponse","status":"completed","subject":{"reference":"Patient/7e5f36bc-3694-49ce-bdba-8ab7a13988d2"}}},{"resource":{"author":{"reference":"Patient/7e5f36bc-3694-49ce-bdba-8ab7a13988d2"},"id":"f5d6e8cf-b0d0-49f7-98d9-089d57d924b3","item":[{"answer":[{"valueString":"Mexico"}],"linkId":"1"},{"item":[{"answer":[{"valueDate":"1950-05-06"}],"linkId":"2.1"},{"answer":[{"valueDate":"1950-05-19"}],"linkId":"2.2"}],"linkId":"2"}],"questionnaire":{"reference":"Questionnaire/2756653a-d80e-4ca1-899f-a79c5ad0c40d"},"resourceType":"QuestionnaireResponse","status":"completed","subject":{"reference":"Patient/7e5f36bc-3694-49ce-bdba-8ab7a13988d2"}}},{"resource":{"author":{"reference":"Patient/7e5f36bc-3694-49ce-bdba-8ab7a13988d2"},"id":"42fe5ae2-c45a-4c85-b062-ba00e34b3873","item":[{"answer":[{"valueString":"Ethiopia"}],"linkId":"1"},{"item":[{"answer":[{"valueDate":"1954-05-05"}],"linkId":"2.1"},{"answer":[{"valueDate":"1954-05-19"}],"linkId":"2.2"}],"linkId":"2"}],"questionnaire":{"reference":"Questionnaire/2756653a-d80e-4ca1-899f-a79c5ad0c40d"},"resourceType":"QuestionnaireResponse","status":"completed","subject":{"reference":"Patient/7e5f36bc-3694-49ce-bdba-8ab7a13988d2"}}},{"resource":{"author":{"reference":"Patient/7e5f36bc-3694-49ce-bdba-8ab7a13988d2"},"id":"0fdfee07-b5ac-4225-9eed-b1b333953cad","item":[{"answer":[{"valueString":"Brazil"}],"linkId":"1"},{"item":[{"answer":[{"valueDate":"1957-05-04"}],"linkId":"2.1"},{"answer":[{"valueDate":"1957-05-10"}],"linkId":"2.2"}],"linkId":"2"}],"questionnaire":{"reference":"Questionnaire/2756653a-d80e-4ca1-899f-a79c5ad0c40d"},"resourceType":"QuestionnaireResponse","status":"completed","subject":{"reference":"Patient/7e5f36bc-3694-49ce-bdba-8ab7a13988d2"}}},{"resource":{"author":{"reference":"Patient/7e5f36bc-3694-49ce-bdba-8ab7a13988d2"},"id":"2118c2ee-79ff-495d-aec7-b2dad1fc577c","item":[{"answer":[{"valueString":"Iran"}],"linkId":"1"},{"item":[{"answer":[{"valueDate":"1960-05-03"}],"linkId":"2.1"},{"answer":[{"valueDate":"1960-05-11"}],"linkId":"2.2"}],"linkId":"2"}],"questionnaire":{"reference":"Questionnaire/2756653a-d80e-4ca1-899f-a79c5ad0c40d"},"resourceType":"QuestionnaireResponse","status":"completed","subject":{"reference":"Patient/7e5f36bc-3694-49ce-bdba-8ab7a13988d2"}}},{"resource":{"author":{"reference":"Patient/7e5f36bc-3694-49ce-bdba-8ab7a13988d2"},"id":"9a410039-a9d9-40f8-a3bd-ee9573c2110c","item":[{"answer":[{"valueString":"Bangladesh"}],"linkId":"1"},{"item":[{"answer":[{"valueDate":"1965-05-02"}],"linkId":"2.1"},{"answer":[{"valueDate":"1965-05-09"}],"linkId":"2.2"}],"linkId":"2"}],"questionnaire":{"reference":"Questionnaire/2756653a-d80e-4ca1-899f-a79c5ad0c40d"},"resourceType":"QuestionnaireResponse","status":"completed","subject":{"reference":"Patient/7e5f36bc-3694-49ce-bdba-8ab7a13988d2"}}},{"resource":{"author":{"reference":"Patient/7e5f36bc-3694-49ce-bdba-8ab7a13988d2"},"id":"82167200-02ca-4d7c-8be1-d5f0bf7dd5dd","item":[{"answer":[{"valueString":"Thailand"}],"linkId":"1"},{"item":[{"answer":[{"valueDate":"1967-05-02"}],"linkId":"2.1"},{"answer":[{"valueDate":"1967-05-15"}],"linkId":"2.2"}],"linkId":"2"}],"questionnaire":{"reference":"Questionnaire/2756653a-d80e-4ca1-899f-a79c5ad0c40d"},"resourceType":"QuestionnaireResponse","status":"completed","subject":{"reference":"Patient/7e5f36bc-3694-49ce-bdba-8ab7a13988d2"}}},{"resource":{"author":{"reference":"Patient/7e5f36bc-3694-49ce-bdba-8ab7a13988d2"},"id":"cb23d929-69c4-490b-a640-1d618990325e","item":[{"answer":[{"valueString":"Ethiopia"}],"linkId":"1"},{"item":[{"answer":[{"valueDate":"1968-05-01"}],"linkId":"2.1"},{"answer":[{"valueDate":"1968-05-06"}],"linkId":"2.2"}],"linkId":"2"}],"questionnaire":{"reference":"Questionnaire/2756653a-d80e-4ca1-899f-a79c5ad0c40d"},"resourceType":"QuestionnaireResponse","status":"completed","subject":{"reference":"Patient/7e5f36bc-3694-49ce-bdba-8ab7a13988d2"}}},{"resource":{"author":{"reference":"Patient/7e5f36bc-3694-49ce-bdba-8ab7a13988d2"},"id":"8653983c-7de9-4367-b33d-2e9982092a90","item":[{"answer":[{"valueString":"India"}],"linkId":"1"},{"item":[{"answer":[{"valueDate":"1973-04-30"}],"linkId":"2.1"},{"answer":[{"valueDate":"1973-05-11"}],"linkId":"2.2"}],"linkId":"2"}],"questionnaire":{"reference":"Questionnaire/2756653a-d80e-4ca1-899f-a79c5ad0c40d"},"resourceType":"QuestionnaireResponse","status":"completed","subject":{"reference":"Patient/7e5f36bc-3694-49ce-bdba-8ab7a13988d2"}}},{"resource":{"author":{"reference":"Patient/7e5f36bc-3694-49ce-bdba-8ab7a13988d2"},"id":"27ef7dc1-080f-43da-86e4-67313a073a6c","item":[{"answer":[{"valueString":"Pakistan"}],"linkId":"1"},{"item":[{"answer":[{"valueDate":"1974-04-30"}],"linkId":"2.1"},{"answer":[{"valueDate":"1974-05-13"}],"linkId":"2.2"}],"linkId":"2"}],"questionnaire":{"reference":"Questionnaire/2756653a-d80e-4ca1-899f-a79c5ad0c40d"},"resourceType":"QuestionnaireResponse","status":"completed","subject":{"reference":"Patient/7e5f36bc-3694-49ce-bdba-8ab7a13988d2"}}},{"resource":{"author":{"reference":"Patient/7e5f36bc-3694-49ce-bdba-8ab7a13988d2"},"id":"9711d7c8-b082-47cd-802a-2bd51717cc8c","item":[{"answer":[{"valueString":"Japan"}],"linkId":"1"},{"item":[{"answer":[{"valueDate":"1977-04-29"}],"linkId":"2.1"},{"answer":[{"valueDate":"1977-05-08"}],"linkId":"2.2"}],"linkId":"2"}],"questionnaire":{"reference":"Questionnaire/2756653a-d80e-4ca1-899f-a79c5ad0c40d"},"resourceType":"QuestionnaireResponse","status":"completed","subject":{"reference":"Patient/7e5f36bc-3694-49ce-bdba-8ab7a13988d2"}}},{"resource":{"author":{"reference":"Patient/7e5f36bc-3694-49ce-bdba-8ab7a13988d2"},"id":"3e39aa22-c175-4e91-9d29-0e02b87ea7ff","item":[{"answer":[{"valueString":"Brazil"}],"linkId":"1"},{"item":[{"answer":[{"valueDate":"1981-04-28"}],"linkId":"2.1"},{"answer":[{"valueDate":"1981-05-10"}],"linkId":"2.2"}],"linkId":"2"}],"questionnaire":{"reference":"Questionnaire/2756653a-d80e-4ca1-899f-a79c5ad0c40d"},"resourceType":"QuestionnaireResponse","status":"completed","subject":{"reference":"Patient/7e5f36bc-3694-49ce-bdba-8ab7a13988d2"}}},{"resource":{"author":{"reference":"Patient/7e5f36bc-3694-49ce-bdba-8ab7a13988d2"},"id":"e42a4fe0-f12e-4e54-8541-8636139211cd","item":[{"answer":[{"valueString":"Nigeria"}],"linkId":"1"},{"item":[{"answer":[{"valueDate":"1986-04-27"}],"linkId":"2.1"},{"answer":[{"valueDate":"1986-05-08"}],"linkId":"2.2"}],"linkId":"2"}],"questionnaire":{"reference":"Questionnaire/2756653a-d80e-4ca1-899f-a79c5ad0c40d"},"resourceType":"QuestionnaireResponse","status":"completed","subject":{"reference":"Patient/7e5f36bc-3694-49ce-bdba-8ab7a13988d2"}}},{"resource":{"author":{"reference":"Patient/7e5f36bc-3694-49ce-bdba-8ab7a13988d2"},"id":"fe48c934-0dbb-4d01-86df-b44a0464955a","item":[{"answer":[{"valueString":"Turkey"}],"linkId":"1"},{"item":[{"answer":[{"valueDate":"1989-04-26"}],"linkId":"2.1"},{"answer":[{"valueDate":"1989-05-08"}],"linkId":"2.2"}],"linkId":"2"}],"questionnaire":{"reference":"Questionnaire/2756653a-d80e-4ca1-899f-a79c5ad0c40d"},"resourceType":"QuestionnaireResponse","status":"completed","subject":{"reference":"Patient/7e5f36bc-3694-49ce-bdba-8ab7a13988d2"}}},{"resource":{"author":{"reference":"Patient/7e5f36bc-3694-49ce-bdba-8ab7a13988d2"},"id":"707e7b4c-bf95-453d-b24e-bc463ef2fb87","item":[{"answer":[{"valueString":"Bangladesh"}],"linkId":"1"},{"item":[{"answer":[{"valueDate":"1990-04-26"}],"linkId":"2.1"},{"answer":[{"valueDate":"1990-05-08"}],"linkId":"2.2"}],"linkId":"2"}],"questionnaire":{"reference":"Questionnaire/2756653a-d80e-4ca1-899f-a79c5ad0c40d"},"resourceType":"QuestionnaireResponse","status":"completed","subject":{"reference":"Patient/7e5f36bc-3694-49ce-bdba-8ab7a13988d2"}}},{"resource":{"author":{"reference":"Patient/7e5f36bc-3694-49ce-bdba-8ab7a13988d2"},"id":"7c7b1a31-fbab-4f04-a8f1-577aa2bd31d3","item":[{"answer":[{"valueString":"China"}],"linkId":"1"},{"item":[{"answer":[{"valueDate":"1992-04-25"}],"linkId":"2.1"},{"answer":[{"valueDate":"1992-05-01"}],"linkId":"2.2"}],"linkId":"2"}],"questionnaire":{"reference":"Questionnaire/2756653a-d80e-4ca1-899f-a79c5ad0c40d"},"resourceType":"QuestionnaireResponse","status":"completed","subject":{"reference":"Patient/7e5f36bc-3694-49ce-bdba-8ab7a13988d2"}}},{"resource":{"author":{"reference":"Patient/7e5f36bc-3694-49ce-bdba-8ab7a13988d2"},"id":"c66f15f6-4ff9-4ed4-9586-f33bc801daf2","item":[{"answer":[{"valueString":"Brazil"}],"linkId":"1"},{"item":[{"answer":[{"valueDate":"1997-04-24"}],"linkId":"2.1"},{"answer":[{"valueDate":"1997-05-04"}],"linkId":"2.2"}],"linkId":"2"}],"questionnaire":{"reference":"Questionnaire/2756653a-d80e-4ca1-899f-a79c5ad0c40d"},"resourceType":"QuestionnaireResponse","status":"completed","subject":{"reference":"Patient/7e5f36bc-3694-49ce-bdba-8ab7a13988d2"}}},{"resource":{"author":{"reference":"Patient/7e5f36bc-3694-49ce-bdba-8ab7a13988d2"},"id":"0d4d0f1b-0301-4887-a7c6-a2bcafcadb06","item":[{"answer":[{"valueString":"India"}],"linkId":"1"},{"item":[{"answer":[{"valueDate":"2001-04-23"}],"linkId":"2.1"},{"answer":[{"valueDate":"2001-04-24"}],"linkId":"2.2"}],"linkId":"2"}],"questionnaire":{"reference":"Questionnaire/2756653a-d80e-4ca1-899f-a79c5ad0c40d"},"resourceType":"QuestionnaireResponse","status":"completed","subject":{"reference":"Patient/7e5f36bc-3694-49ce-bdba-8ab7a13988d2"}}},{"resource":{"author":{"reference":"Patient/7e5f36bc-3694-49ce-bdba-8ab7a13988d2"},"id":"a015259a-8bf9-46d2-b200-8fd2fef1a66d","item":[{"answer":[{"valueString":"Democratic Republic of the Congo"}],"linkId":"1"},{"item":[{"answer":[{"valueDate":"2004-04-22"}],"linkId":"2.1"},{"answer":[{"valueDate":"2004-04-26"}],"linkId":"2.2"}],"linkId":"2"}],"questionnaire":{"reference":"Questionnaire/2756653a-d80e-4ca1-899f-a79c5ad0c40d"},"resourceType":"QuestionnaireResponse","status":"completed","subject":{"reference":"Patient/7e5f36bc-3694-49ce-bdba-8ab7a13988d2"}}},{"resource":{"author":{"reference":"Patient/7e5f36bc-3694-49ce-bdba-8ab7a13988d2"},"id":"81ddbdf2-e375-4480-a9cf-f31c2a1c9f09","item":[{"answer":[{"valueString":"Democratic Republic of the Congo"}],"linkId":"1"},{"item":[{"answer":[{"valueDate":"2006-04-22"}],"linkId":"2.1"},{"answer":[{"valueDate":"2006-04-23"}],"linkId":"2.2"}],"linkId":"2"}],"questionnaire":{"reference":"Questionnaire/2756653a-d80e-4ca1-899f-a79c5ad0c40d"},"resourceType":"QuestionnaireResponse","status":"completed","subject":{"reference":"Patient/7e5f36bc-3694-49ce-bdba-8ab7a13988d2"}}},{"resource":{"author":{"reference":"Patient/7e5f36bc-3694-49ce-bdba-8ab7a13988d2"},"id":"29a8cc27-3929-403a-97b3-06c8256fd4c9","item":[{"answer":[{"valueString":"Indonesia"}],"linkId":"1"},{"item":[{"answer":[{"valueDate":"2009-04-21"}],"linkId":"2.1"},{"answer":[{"valueDate":"2009-04-22"}],"linkId":"2.2"}],"linkId":"2"}],"questionnaire":{"reference":"Questionnaire/2756653a-d80e-4ca1-899f-a79c5ad0c40d"},"resourceType":"QuestionnaireResponse","status":"completed","subject":{"reference":"Patient/7e5f36bc-3694-49ce-bdba-8ab7a13988d2"}}},{"resource":{"author":{"reference":"Patient/7e5f36bc-3694-49ce-bdba-8ab7a13988d2"},"id":"11d56a76-6010-4da5-b7f7-f8d919447f2d","item":[{"answer":[{"valueString":"Indonesia"}],"linkId":"1"},{"item":[{"answer":[{"valueDate":"2013-04-20"}],"linkId":"2.1"},{"answer":[{"valueDate":"2013-05-01"}],"linkId":"2.2"}],"linkId":"2"}],"questionnaire":{"reference":"Questionnaire/2756653a-d80e-4ca1-899f-a79c5ad0c40d"},"resourceType":"QuestionnaireResponse","status":"completed","subject":{"reference":"Patient/7e5f36bc-3694-49ce-bdba-8ab7a13988d2"}}},{"resource":{"author":{"reference":"Patient/7e5f36bc-3694-49ce-bdba-8ab7a13988d2"},"id":"e370c4e6-b5b3-407b-b673-436617498fef","item":[{"answer":[{"valueString":"Mexico"}],"linkId":"1"},{"item":[{"answer":[{"valueDate":"2015-04-20"}],"linkId":"2.1"},{"answer":[{"valueDate":"2015-04-26"}],"linkId":"2.2"}],"linkId":"2"}],"questionnaire":{"reference":"Questionnaire/2756653a-d80e-4ca1-899f-a79c5ad0c40d"},"resourceType":"QuestionnaireResponse","status":"completed","subject":{"reference":"Patient/7e5f36bc-3694-49ce-bdba-8ab7a13988d2"}}},{"resource":{"author":{"reference":"Patient/7e5f36bc-3694-49ce-bdba-8ab7a13988d2"},"id":"6f0b68af-68eb-4b73-a601-e5892819f93c","item":[{"answer":[{"valueString":"Brazil"}],"linkId":"1"},{"item":[{"answer":[{"valueDate":"2016-04-19"}],"linkId":"2.1"},{"answer":[{"valueDate":"2016-04-22"}],"linkId":"2.2"}],"linkId":"2"}],"questionnaire":{"reference":"Questionnaire/2756653a-d80e-4ca1-899f-a79c5ad0c40d"},"resourceType":"QuestionnaireResponse","status":"completed","subject":{"reference":"Patient/7e5f36bc-3694-49ce-bdba-8ab7a13988d2"}}},{"resource":{"author":{"reference":"Patient/7e5f36bc-3694-49ce-bdba-8ab7a13988d2"},"id":"e7dd38fd-e7ea-4823-9d05-5afb6884a3ec","item":[{"answer":[{"valueString":"Egypt"}],"linkId":"1"},{"item":[{"answer":[{"valueDate":"2019-04-19"}],"linkId":"2.1"},{"answer":[{"valueDate":"2019-04-21"}],"linkId":"2.2"}],"linkId":"2"}],"questionnaire":{"reference":"Questionnaire/2756653a-d80e-4ca1-899f-a79c5ad0c40d"},"resourceType":"QuestionnaireResponse","status":"completed","subject":{"reference":"Patient/7e5f36bc-3694-49ce-bdba-8ab7a13988d2"}}}],"resourceType":"Bundle"}